wavelength,flux
3750.00,0.0122262
3755.00,0.000478236
3760.00,0.00760011
3765.00,0.00379393
3770.00,0.000477838
3775.00,0.00713976
3780.00,0.00593751
3785.00,0.00170168
3790.00,0.00201524
3795.00,-0.00294997
3800.00,0.00513506
3805.00,0.00937609
3810.00,0.00629282
3815.00,2.77474e-05
3820.00,-0.000858014
3825.00,-0.00400841
3830.00,0.00376102
3835.00,0.00999451
3840.00,0.00403631
3845.00,-0.00411030
3850.00,0.00654349
3855.00,0.00155027
3860.00,0.00329972
3865.00,0.00107151
3870.00,0.00693765
3875.00,0.00292456
3880.00,-0.000191673
3885.00,0.00486712
3890.00,0.00293982
3895.00,0.00525176
3900.00,0.0106404
3905.00,0.000404663
3910.00,0.0167188
3915.00,0.00174426
3920.00,0.00994964
3925.00,0.00978426
3930.00,0.0130162
3935.00,0.00424528
3940.00,0.00303966
3945.00,0.00691427
3950.00,0.00729864
3955.00,0.00948284
3960.00,0.00525445
3965.00,0.00770445
3970.00,0.00855361
3975.00,0.00343711
3980.00,0.00711995
3985.00,0.00400227
3990.00,0.00551443
3995.00,0.0144401
4000.00,0.0106738
4005.00,0.00920696
4010.00,0.00451958
4015.00,0.00680207
4020.00,0.00460760
4025.00,0.0106928
4030.00,-0.00275481
4035.00,0.00598349
4040.00,0.0106039
4045.00,0.0136805
4050.00,0.0103874
4055.00,0.00646633
4060.00,0.0118470
4065.00,0.00622479
4070.00,0.0102732
4075.00,0.0147075
4080.00,0.00225856
4085.00,0.0139439
4090.00,0.00815180
4095.00,0.00887599
4100.00,0.00532726
4105.00,0.00971540
4110.00,0.0171302
4115.00,0.00965811
4120.00,0.0160693
4125.00,0.00921752
4130.00,0.00924369
4135.00,0.00583408
4140.00,0.0111208
4145.00,0.00409645
4150.00,0.00698392
4155.00,0.00766411
4160.00,0.0100061
4165.00,0.00268643
4170.00,0.00888753
4175.00,0.00925531
4180.00,0.00991981
4185.00,0.00949020
4190.00,0.00901876
4195.00,0.0112995
4200.00,0.00501636
4205.00,0.00717499
4210.00,0.0110464
4215.00,0.00447356
4220.00,0.00488741
4225.00,0.00879542
4230.00,0.00592270
4235.00,0.00295645
4240.00,0.00981358
4245.00,0.00751748
4250.00,0.00786320
4255.00,0.00417198
4260.00,0.00534363
4265.00,0.000671656
4270.00,0.0118687
4275.00,0.00959614
4280.00,0.00454163
4285.00,0.00508171
4290.00,0.00816760
4295.00,0.00345625
4300.00,0.0110829
4305.00,-0.00156908
4310.00,0.00752314
4315.00,0.00504137
4320.00,0.0127218
4325.00,0.00447333
4330.00,0.00571165
4335.00,0.00634142
4340.00,0.00594822
4345.00,0.00744255
4350.00,0.00737814
4355.00,0.00176253
4360.00,0.00554770
4365.00,0.0125665
4370.00,0.00669596
4375.00,0.0152331
4380.00,0.0126365
4385.00,0.0139788
4390.00,0.0112187
4395.00,0.00971191
4400.00,0.00922410
4405.00,0.00781459
4410.00,0.00545060
4415.00,0.00305974
4420.00,0.00366930
4425.00,0.00550283
4430.00,0.00797142
4435.00,0.0133391
4440.00,0.00504384
4445.00,0.00620596
4450.00,0.00700780
4455.00,0.00601372
4460.00,0.00729492
4465.00,0.00493351
4470.00,0.0114561
4475.00,0.0101785
4480.00,0.00539122
4485.00,0.00682152
4490.00,0.00581321
4495.00,0.00641298
4500.00,0.0118979
4505.00,0.0120093
4510.00,0.00595552
4515.00,0.00597610
4520.00,0.00531535
4525.00,0.00620709
4530.00,0.00575435
4535.00,0.00562737
4540.00,0.0107254
4545.00,0.0114193
4550.00,0.00696644
4555.00,0.0119163
4560.00,0.0113041
4565.00,0.00985779
4570.00,0.0119170
4575.00,0.0109243
4580.00,0.00884368
4585.00,0.0104982
4590.00,0.0159571
4595.00,0.0115214
4600.00,0.0143647
4605.00,0.0128256
4610.00,0.0113882
4615.00,0.0118555
4620.00,0.0104465
4625.00,0.0136181
4630.00,0.0110333
4635.00,0.0141025
4640.00,0.0104681
4645.00,0.0129217
4650.00,0.0139442
4655.00,0.0123737
4660.00,0.0185308
4665.00,0.0128819
4670.00,0.0141835
4675.00,0.0125634
4680.00,0.0173281
4685.00,0.0155131
4690.00,0.00959134
4695.00,0.0134992
4700.00,0.0154909
4705.00,0.0129004
4710.00,0.0110722
4715.00,0.0119851
4720.00,0.0159970
4725.00,0.0139385
4730.00,0.0160219
4735.00,0.0115017
4740.00,0.0166446
4745.00,0.0191636
4750.00,0.0119716
4755.00,0.0149144
4760.00,0.0129887
4765.00,0.0119350
4770.00,0.0120828
4775.00,0.0128620
4780.00,0.0123816
4785.00,0.0143706
4790.00,0.00940156
4795.00,0.0136365
4800.00,0.00433409
4805.00,0.00832141
4810.00,0.0136677
4815.00,0.00890836
4820.00,0.00712176
4825.00,0.0102501
4830.00,0.0129674
4835.00,0.0124490
4840.00,0.00263683
4845.00,0.00577421
4850.00,0.0131434
4855.00,0.0130111
4860.00,0.00798659
4865.00,0.00707195
4870.00,0.0128309
4875.00,0.00963179
4880.00,0.0100004
4885.00,0.0110325
4890.00,0.0137831
4895.00,0.00813013
4900.00,0.00969073
4905.00,0.00881409
4910.00,0.0122945
4915.00,0.0113137
4920.00,0.0101088
4925.00,0.0126916
4930.00,0.00683466
4935.00,0.00616366
4940.00,0.0117150
4945.00,0.0177485
4950.00,0.0197361
4955.00,0.0105374
4960.00,0.0164494
4965.00,0.0140898
4970.00,0.0130755
4975.00,0.0126731
4980.00,0.0208993
4985.00,0.0240770
4990.00,0.0118556
4995.00,0.0102603
5000.00,0.00916534
5005.00,0.0137075
5010.00,0.0144380
5015.00,0.0101060
5020.00,0.0149142
5025.00,0.0107269
5030.00,0.00961512
5035.00,0.00946497
5040.00,0.0178980
5045.00,0.0118464
5050.00,0.00731956
5055.00,0.0123733
5060.00,0.00661550
5065.00,0.0166224
5070.00,0.0112380
5075.00,0.00413062
5080.00,0.0125421
5085.00,0.0102403
5090.00,0.0150740
5095.00,0.00827033
5100.00,0.0141670
5105.00,0.00249347
5110.00,0.0102718
5115.00,0.00911345
5120.00,0.0135237
5125.00,0.0126742
5130.00,0.0123231
5135.00,0.0100574
5140.00,0.00942633
5145.00,0.00897372
5150.00,0.0108755
5155.00,0.0120311
5160.00,0.00591000
5165.00,0.0106512
5170.00,0.0134618
5175.00,0.00948583
5180.00,0.0150936
5185.00,0.00595864
5190.00,0.0135730
5195.00,0.00962256
5200.00,0.0142341
5205.00,0.00715346
5210.00,0.00968894
5215.00,0.0143416
5220.00,0.0137715
5225.00,0.0147236
5230.00,0.0150180
5235.00,0.0150188
5240.00,0.0132585
5245.00,0.00889341
5250.00,0.00943060
5255.00,0.0104011
5260.00,0.0132058
5265.00,0.00820934
5270.00,0.0108519
5275.00,0.00787352
5280.00,0.00961876
5285.00,0.0108852
5290.00,0.0123148
5295.00,0.0169748
5300.00,0.0255679
5305.00,0.0148303
5310.00,0.00815662
5315.00,0.0133183
5320.00,0.0161885
5325.00,0.0152617
5330.00,0.0153717
5335.00,0.0162771
5340.00,0.0123071
5345.00,0.0137644
5350.00,0.0118231
5355.00,0.0206861
5360.00,0.0216455
5365.00,0.0180874
5370.00,0.0197901
5375.00,0.0206563
5380.00,0.0226760
5385.00,0.0143134
5390.00,0.0209598
5395.00,0.0194095
5400.00,0.0175016
5405.00,0.0169486
5410.00,0.0165266
5415.00,0.0193605
5420.00,0.00847517
5425.00,0.0153289
5430.00,0.0210003
5435.00,0.0166120
5440.00,0.0138897
5445.00,0.0183538
5450.00,0.0243504
5455.00,0.00974198
5460.00,0.0104800
5465.00,0.0162649
5470.00,0.0126461
5475.00,0.0232912
5480.00,0.0250544
5485.00,0.0240040
5490.00,0.0232921
5495.00,0.0196660
5500.00,0.0150669
5505.00,0.0211782
5510.00,0.0208670
5515.00,0.0227875
5520.00,0.0192871
5525.00,0.0169472
5530.00,0.0220498
5535.00,0.0219721
5540.00,0.0235779
5545.00,0.0218832
5550.00,0.0263625
5555.00,0.0213683
5560.00,0.0200042
5565.00,0.0203278
5570.00,0.0213568
5575.00,0.0141795
5580.00,0.0115714
5585.00,0.0246171
5590.00,0.0210498
5595.00,0.0125030
5600.00,0.0135414
5605.00,0.0166579
5610.00,0.0137630
5615.00,0.0140158
5620.00,0.0156375
5625.00,0.0159544
5630.00,0.0196171
5635.00,0.0192344
5640.00,0.0170447
5645.00,0.0198422
5650.00,0.0198184
5655.00,0.0211000
5660.00,0.0243679
5665.00,0.0218038
5670.00,0.0196490
5675.00,0.0147254
5680.00,0.00977192
5685.00,0.0150202
5690.00,0.0204195
5695.00,0.0196582
5700.00,0.0216462
5705.00,0.0151886
5710.00,0.0170133
5715.00,0.0178939
5720.00,0.0181410
5725.00,0.0176410
5730.00,0.0111610
5735.00,0.0103983
5740.00,0.0106991
5745.00,0.00855998
5750.00,0.0112128
5755.00,0.0126012
5760.00,0.0134692
5765.00,0.0165978
5770.00,0.0143582
5775.00,0.0112912
5780.00,0.0131034
5785.00,0.0142915
5790.00,0.0116444
5795.00,0.00926519
5800.00,0.0118347
5805.00,0.0153203
5810.00,0.0172479
5815.00,0.0172113
5820.00,0.0132654
5825.00,0.0111170
5830.00,0.0141718
5835.00,0.0147651
5840.00,0.0134643
5845.00,0.0132684
5850.00,0.0157151
5855.00,0.0145813
5860.00,0.0119905
5865.00,0.0175196
5870.00,0.0168769
5875.00,0.0236950
5880.00,0.0294772
5885.00,0.0279160
5890.00,0.0269762
5895.00,0.0248879
5900.00,0.0281847
5905.00,0.0232679
5910.00,0.0209684
5915.00,0.0260195
5920.00,0.0197406
5925.00,0.0209031
5930.00,0.0306707
5935.00,0.0208762
5940.00,0.0223417
5945.00,0.0262467
5950.00,0.0266359
5955.00,0.0228450
5960.00,0.0214410
5965.00,0.0207846
5970.00,0.0240727
5975.00,0.0236711
5980.00,0.0244298
5985.00,0.0229413
5990.00,0.0230043
5995.00,0.0268730
6000.00,0.0222216
6005.00,0.0227373
6010.00,0.0260465
6015.00,0.0239160
6020.00,0.0239866
6025.00,0.0232754
6030.00,0.0220668
6035.00,0.0220503
6040.00,0.0251183
6045.00,0.0195811
6050.00,0.0208974
6055.00,0.0233129
6060.00,0.0171354
6065.00,0.0193604
6070.00,0.0237247
6075.00,0.0220435
6080.00,0.0246224
6085.00,0.0280500
6090.00,0.0245243
6095.00,0.0193899
6100.00,0.0168640
6105.00,0.0228088
6110.00,0.0270527
6115.00,0.0223985
6120.00,0.0203342
6125.00,0.0212278
6130.00,0.0192426
6135.00,0.0190756
6140.00,0.0204798
6145.00,0.0251856
6150.00,0.0237925
6155.00,0.0217719
6160.00,0.0208321
6165.00,0.0188171
6170.00,0.0189376
6175.00,0.0190928
6180.00,0.0204807
6185.00,0.0182172
6190.00,0.0202329
6195.00,0.0201633
6200.00,0.0187553
6205.00,0.0217156
6210.00,0.0203871
6215.00,0.0184947
6220.00,0.0197879
6225.00,0.0169771
6230.00,0.0164989
6235.00,0.0197459
6240.00,0.0210396
6245.00,0.0199576
6250.00,0.0184230
6255.00,0.0200314
6260.00,0.0202550
6265.00,0.0183319
6270.00,0.0159550
6275.00,0.0157128
6280.00,0.0219194
6285.00,0.0222677
6290.00,0.0220467
6295.00,0.0253468
6300.00,0.0179071
6305.00,0.0179890
6310.00,0.0240916
6315.00,0.0254606
6320.00,0.0242599
6325.00,0.0201879
6330.00,0.0213674
6335.00,0.0222009
6340.00,0.0235378
6345.00,0.0259763
6350.00,0.0275388
6355.00,0.0255954
6360.00,0.0227259
6365.00,0.0218630
6370.00,0.0241583
6375.00,0.0253049
6380.00,0.0217266
6385.00,0.0210867
6390.00,0.0260088
6395.00,0.0231108
6400.00,0.0176730
6405.00,0.0195717
6410.00,0.0209686
6415.00,0.0210003
6420.00,0.0192883
6425.00,0.0222300
6430.00,0.0227740
6435.00,0.0206073
6440.00,0.0204139
6445.00,0.0218202
6450.00,0.0156130
6455.00,0.0197879
6460.00,0.0231723
6465.00,0.0195374
6470.00,0.0245317
6475.00,0.0241235
6480.00,0.0226774
6485.00,0.0184425
6490.00,0.0180099
6495.00,0.0211684
6500.00,0.0206361
6505.00,0.0190701
6510.00,0.0196913
6515.00,0.0216581
6520.00,0.0219311
6525.00,0.0218735
6530.00,0.0223597
6535.00,0.0211094
6540.00,0.0200094
6545.00,0.0220064
6550.00,0.0207555
6555.00,0.0192272
6560.00,0.0227330
6565.00,0.0259978
6570.00,0.0243582
6575.00,0.0235658
6580.00,0.0251095
6585.00,0.0247525
6590.00,0.0198689
6595.00,0.0215036
6600.00,0.0212434
6605.00,0.0189668
6610.00,0.0187397
6615.00,0.0227582
6620.00,0.0232953
6625.00,0.0235398
6630.00,0.0206261
6635.00,0.0204057
6640.00,0.0221023
6645.00,0.0213811
6650.00,0.0172681
6655.00,0.00941855
6660.00,0.00731704
6665.00,0.0109242
6670.00,0.0163362
6675.00,0.0208133
6680.00,0.0196364
6685.00,0.0179698
6690.00,0.0193627
6695.00,0.0184248
6700.00,0.0185207
6705.00,0.0214716
6710.00,0.0191110
6715.00,0.0192598
6720.00,0.0215248
6725.00,0.0214913
6730.00,0.0192770
6735.00,0.0160001
6740.00,0.0174203
6745.00,0.0191917
6750.00,0.0176340
6755.00,0.0182381
6760.00,0.0188731
6765.00,0.0163308
6770.00,0.0177046
6775.00,0.0166939
6780.00,0.0197086
6785.00,0.0203600
6790.00,0.0141145
6795.00,0.0182735
6800.00,0.0193148
6805.00,0.0193745
6810.00,0.0198574
6815.00,0.0160621
6820.00,0.0141881
6825.00,0.0166704
6830.00,0.0171036
6835.00,0.0172187
6840.00,0.0207695
6845.00,0.0190611
6850.00,0.0192817
6855.00,0.0204969
6860.00,0.0175878
6865.00,0.0177037
6870.00,0.0210191
6875.00,0.0193203
6880.00,0.0179904
6885.00,0.0195738
6890.00,0.0181976
6895.00,0.0166709
6900.00,0.0166823
6905.00,0.0188484
6910.00,0.0186126
6915.00,0.0172516
6920.00,0.0169047
6925.00,0.0158295
6930.00,0.0165107
6935.00,0.0201170
6940.00,0.0221878
6945.00,0.0185605
6950.00,0.0145654
6955.00,0.0155888
6960.00,0.0162656
6965.00,0.0153063
6970.00,0.0157039
6975.00,0.0189272
6980.00,0.0201133
6985.00,0.0147999
6990.00,0.0149019
6995.00,0.0155165
7000.00,0.0146135
7005.00,0.0150040
7010.00,0.0154335
7015.00,0.0172050
7020.00,0.0205653
7025.00,0.0202270
7030.00,0.0186646
7035.00,0.0160904
7040.00,0.0164894
7045.00,0.0163159
7050.00,0.0176528
7055.00,0.0216818
7060.00,0.0213076
7065.00,0.0186694
7070.00,0.0198750
7075.00,0.0237124
7080.00,0.0229040
7085.00,0.0210227
7090.00,0.0210087
7095.00,0.0168994
7100.00,0.0192013
7105.00,0.0208885
7110.00,0.0194334
7115.00,0.0201148
7120.00,0.0184986
7125.00,0.0191457
7130.00,0.0209236
7135.00,0.0214793
7140.00,0.0208664
7145.00,0.0222945
7150.00,0.0193189
7155.00,0.0191697
7160.00,0.0210627
7165.00,0.0201424
7170.00,0.0201632
7175.00,0.0192942
7180.00,0.0176797
7185.00,0.0186550
7190.00,0.0182513
7195.00,0.0222410
7200.00,0.0230665
7205.00,0.0210393
7210.00,0.0216663
7215.00,0.0206147
7220.00,0.0215474
7225.00,0.0232919
7230.00,0.0239855
7235.00,0.0226398
7240.00,0.0223991
7245.00,0.0249648
7250.00,0.0235422
7255.00,0.0239841
7260.00,0.0224562
7265.00,0.0219553
7270.00,0.0236610
7275.00,0.0237857
7280.00,0.0186309
7285.00,0.0195633
7290.00,0.0229330
7295.00,0.0268269
7300.00,0.0251020
7305.00,0.0257390
7310.00,0.0232407
7315.00,0.0219418
7320.00,0.0234066
7325.00,0.0233918
7330.00,0.0267895
7335.00,0.0291880
7340.00,0.0301288
7345.00,0.0289385
7350.00,0.0255042
7355.00,0.0221975
7360.00,0.0260438
7365.00,0.0292685
7370.00,0.0301710
7375.00,0.0283263
7380.00,0.0251161
7385.00,0.0302568
7390.00,0.0314834
7395.00,0.0276228
7400.00,0.0284486
7405.00,0.0270755
7410.00,0.0258924
7415.00,0.0265736
7420.00,0.0238192
7425.00,0.0224502
7430.00,0.0236747
7435.00,0.0232061
7440.00,0.0249021
7445.00,0.0240715
7450.00,0.0210946
7455.00,0.0215831
7460.00,0.0207630
7465.00,0.0194311
7470.00,0.0224973
7475.00,0.0259212
7480.00,0.0245314
7485.00,0.0254320
7490.00,0.0230245
7495.00,0.0196537
7500.00,0.0201277
7505.00,0.0173967
7510.00,0.0183817
7515.00,0.0207842
7520.00,0.0194853
7525.00,0.0177500
7530.00,0.0147073
7535.00,0.0165343
7540.00,0.0194771
7545.00,0.0200586
7550.00,0.0213341
7555.00,0.0189036
7560.00,0.0179865
7565.00,0.0173399
7570.00,0.0155696
7575.00,0.0156810
7580.00,0.0162367
7585.00,0.0181462
7590.00,0.0198000
7595.00,0.0188615
7600.00,0.0116204
7605.00,0.00911764
7610.00,0.0151647
7615.00,0.0194700
7620.00,0.0183033
7625.00,0.0155615
7630.00,0.0151263
7635.00,0.0167888
7640.00,0.0182770
7645.00,0.0186351
7650.00,0.0165756
7655.00,0.0167706
7660.00,0.0163942
7665.00,0.0183656
7670.00,0.0180048
7675.00,0.0101265
7680.00,0.0164266
7685.00,0.0210240
7690.00,0.0171104
7695.00,0.0171424
7700.00,0.0182585
7705.00,0.0174957
7710.00,0.0207068
7715.00,0.0196831
7720.00,0.0175974
7725.00,0.0156553
7730.00,0.0158336
7735.00,0.0159095
7740.00,0.0208571
7745.00,0.0251328
7750.00,0.0228259
7755.00,0.0237410
7760.00,0.0197258
7765.00,0.0177955
7770.00,0.0170075
7775.00,0.0169676
7780.00,0.0186886
7785.00,0.0207945
7790.00,0.0250167
7795.00,0.0216842
7800.00,0.0213334
7805.00,0.0243988
7810.00,0.0222011
7815.00,0.0213114
7820.00,0.0220486
7825.00,0.0220668
7830.00,0.0212047
7835.00,0.0241386
7840.00,0.0221044
7845.00,0.0176129
7850.00,0.0217402
7855.00,0.0235787
7860.00,0.0217768
7865.00,0.0269660
7870.00,0.0313460
7875.00,0.0300173
7880.00,0.0309455
7885.00,0.0299336
7890.00,0.0226165
7895.00,0.0249165
7900.00,0.0244534
7905.00,0.0199491
7910.00,0.0249906
7915.00,0.0252503
7920.00,0.0229383
7925.00,0.0219294
7930.00,0.0242035
7935.00,0.0240970
7940.00,0.0221097
7945.00,0.0212486
7950.00,0.0220848
7955.00,0.0207677
7960.00,0.0212806
7965.00,0.0264878
7970.00,0.0201503
7975.00,0.0185587
7980.00,0.0204422
7985.00,0.0207318
7990.00,0.0253472
7995.00,0.0237500
8000.00,0.0219910
8005.00,0.0193671
8010.00,0.0210709
8015.00,0.0202560
8020.00,0.0162974
8025.00,0.0144534
8030.00,0.0192634
8035.00,0.0226524
8040.00,0.0229163
8045.00,0.0224337
8050.00,0.0211066
8055.00,0.0203531
8060.00,0.0176565
8065.00,0.0183464
8070.00,0.0210809
8075.00,0.0239764
8080.00,0.0224458
8085.00,0.0185567
8090.00,0.0174014
8095.00,0.0218369
8100.00,0.0190908
8105.00,0.0173246
8110.00,0.0190396
8115.00,0.0230771
8120.00,0.0221553
8125.00,0.0183331
8130.00,0.0200055
8135.00,0.0193485
8140.00,0.0172707
8145.00,0.0201291
8150.00,0.0213977
8155.00,0.0188135
8160.00,0.0168291
8165.00,0.0165169
8170.00,0.0191941
8175.00,0.0234570
8180.00,0.0222622
8185.00,0.0149948
8190.00,0.0127618
8195.00,0.0143123
8200.00,0.0172850
8205.00,0.0189012
8210.00,0.0154812
8215.00,0.0167624
8220.00,0.0233425
8225.00,0.0192916
8230.00,0.0169142
8235.00,0.0187193
8240.00,0.0149328
8245.00,0.0145388
8250.00,0.0195885
8255.00,0.0158433
8260.00,0.0152594
8265.00,0.0131974
8270.00,0.0129324
8275.00,0.0169868
8280.00,0.0190725
8285.00,0.0184449
8290.00,0.0146509
8295.00,0.0116368
8300.00,0.0158544
8305.00,0.0174364
8310.00,0.0146441
8315.00,0.0116853
8320.00,0.00979158
8325.00,0.0124819
8330.00,0.0154304
8335.00,0.0137668
8340.00,0.0199183
8345.00,0.0236049
8350.00,0.0134518
8355.00,0.00563622
8360.00,0.00661503
8365.00,0.0128858
8370.00,0.0146734
8375.00,0.0179997
8380.00,0.0193360
8385.00,0.0190222
8390.00,0.0226650
8395.00,0.0215769
8400.00,0.0163047
8405.00,0.0146520
8410.00,0.0182889
8415.00,0.0199377
8420.00,0.0168611
8425.00,0.0156900
8430.00,0.0184994
8435.00,0.0201041
8440.00,0.0181521
8445.00,0.0176875
8450.00,0.0201609
8455.00,0.0153845
8460.00,0.0132307
8465.00,0.0151779
8470.00,0.0139558
8475.00,0.0167176
8480.00,0.0191535
8485.00,0.0197141
8490.00,0.0176974
8495.00,0.0149764
8500.00,0.0139820
8505.00,0.0146737
8510.00,0.0105002
8515.00,0.0111999
8520.00,0.0173980
8525.00,0.0174519
8530.00,0.0178312
8535.00,0.0177140
8540.00,0.0187482
8545.00,0.0214557
8550.00,0.0215326
8555.00,0.0222837
8560.00,0.0212385
8565.00,0.0176975
8570.00,0.0171551
8575.00,0.0264499
8580.00,0.0268177
8585.00,0.0215050
8590.00,0.0285572
8595.00,0.0288739
8600.00,0.0284191
8605.00,0.0312709
8610.00,0.0284333
8615.00,0.0329415
8620.00,0.0377221
8625.00,0.0368734
8630.00,0.0383687
8635.00,0.0360432
8640.00,0.0319136
8645.00,0.0343185
8650.00,0.0327118
8655.00,0.0354886
8660.00,0.0388649
8665.00,0.0414576
8670.00,0.0412327
8675.00,0.0421891
8680.00,0.0444442
8685.00,0.0410442
8690.00,0.0404259
8695.00,0.0441483
8700.00,0.0426805
8705.00,0.0459268
8710.00,0.0487296
8715.00,0.0448877
8720.00,0.0436600
8725.00,0.0436996
8730.00,0.0402077
8735.00,0.0451147
8740.00,0.0449756
8745.00,0.0454954
8750.00,0.0455427
8755.00,0.0481324
8760.00,0.0517169
8765.00,0.0518541
8770.00,0.0518808
8775.00,0.0518232
8780.00,0.0531902
8785.00,0.0513489
8790.00,0.0486660
8795.00,0.0462536
8800.00,0.0434857
8805.00,0.0507506
8810.00,0.0527489
8815.00,0.0433549
8820.00,0.0456055
8825.00,0.0493849
8830.00,0.0446861
8835.00,0.0511606
8840.00,0.0445356
8845.00,0.0417250
8850.00,0.0434591
8855.00,0.0437058
8860.00,0.0452509
8865.00,0.0465518
8870.00,0.0466046
8875.00,0.0497322
8880.00,0.0523279
8885.00,0.0467874
8890.00,0.0411009
8895.00,0.0346032
8900.00,0.0351214
8905.00,0.0433880
8910.00,0.0369696
8915.00,0.0308735
8920.00,0.0395104
8925.00,0.0400783
8930.00,0.0342532
8935.00,0.0312329
8940.00,0.0391698
8945.00,0.0357788
8950.00,0.0341231
8955.00,0.0314246
8960.00,0.0249562
8965.00,0.0315548
8970.00,0.0287046
8975.00,0.0262304
8980.00,0.0211075
8985.00,0.0248599
8990.00,0.0315249
8995.00,0.0318368
9000.00,0.0221218
9005.00,0.0264233
9010.00,0.0265236
9015.00,0.0285982
9020.00,0.0289303
9025.00,0.0254853
9030.00,0.0268517
9035.00,0.0289475
9040.00,0.0331760
9045.00,0.0340761
9050.00,0.0285481
9055.00,0.0253041
9060.00,0.0268124
9065.00,0.0222882
9070.00,0.0245142
9075.00,0.0220596
9080.00,0.0133428
9085.00,0.0139264
9090.00,0.0174161
9095.00,0.0209142
9100.00,0.0187782
9105.00,0.0199705
9110.00,0.0250990
9115.00,0.0235284
9120.00,0.0172136
9125.00,0.0191390
9130.00,0.0185234
9135.00,0.0194000
9140.00,0.0210789
9145.00,0.0183615
9150.00,0.0148339
9155.00,0.0213468
9160.00,0.0254883
9165.00,0.0173118
9170.00,0.0267864
9175.00,0.0233212
9180.00,0.0238120
9185.00,0.0213639
9190.00,0.0234175
9195.00,0.0242836
9200.00,0.0276054
9205.00,0.0231308
9210.00,0.0197785
9215.00,0.0209628
9220.00,0.0224386
9225.00,0.0208873
9230.00,0.0215221
9235.00,0.0191220
9240.00,0.0194014
9245.00,0.0285619
9250.00,0.0208909
9255.00,0.0177344
9260.00,0.0196637
9265.00,0.0242790
9270.00,0.0263541
9275.00,0.0218345
9280.00,0.0267403
9285.00,0.0265583
9290.00,0.0214547
9295.00,0.0268338
9300.00,0.0347345
9305.00,0.0348483
9310.00,0.0257942
9315.00,0.0100048
9320.00,0.0278844
9325.00,0.0302338
9330.00,0.0263180
9335.00,0.0237287
9340.00,0.0273960
9345.00,0.0149947
9350.00,0.0221615
9355.00,0.0269860
9360.00,0.0178696
9365.00,0.0163353
9370.00,0.0236351
9375.00,0.0147729
9380.00,0.0266267
9385.00,0.0333952
9390.00,0.0243603
9395.00,0.0189673
9400.00,0.0182240
9405.00,0.0212580
9410.00,0.0241014
9415.00,0.0247058
9420.00,0.0283143
9425.00,0.0294337
9430.00,0.0225718
9435.00,0.0255643
9440.00,0.0200969
9445.00,0.0197890
9450.00,0.0341218
9455.00,0.0257884
9460.00,0.0104574
9465.00,0.0321081
9470.00,0.0595325
9475.00,0.0565297
9480.00,0.0438727
9485.00,0.0251938
9490.00,0.0162316
9495.00,0.0148478
9500.00,0.0130237
9505.00,0.0168632
9510.00,0.0287248
9515.00,0.0292678
9520.00,0.0224181
9525.00,0.0247632
9530.00,0.0184958
9535.00,0.0214432
9540.00,0.0228435
9545.00,0.0197827
9550.00,0.0293949
9555.00,0.0314352
9560.00,0.0157958
9565.00,0.0144228
9570.00,0.0134367
9575.00,0.0169588
9580.00,0.0246981
9585.00,0.0198646
9590.00,0.0235524
9595.00,0.0287774
9600.00,0.0286422
9605.00,0.0303951
9610.00,0.0493990
9615.00,0.0392743
9620.00,0.0129272
9625.00,0.0195613
9630.00,0.0163836
9635.00,0.0147809
9640.00,0.0266226
9645.00,0.0166701
9650.00,0.0179974
9655.00,0.0339206
9660.00,0.0302630
9665.00,0.0184197
9670.00,0.0183858
9675.00,0.0199408
9680.00,0.0213691
9685.00,0.0245085
9690.00,0.0242462
9695.00,0.0317715
9700.00,0.0232185
9705.00,0.0120349
9710.00,0.0360712
9715.00,0.0415161
9720.00,0.0287762
9725.00,0.0216065
9730.00,0.0307809
9735.00,0.0248615
9740.00,0.0190046
9745.00,0.0258182
9750.00,0.0207638
9755.00,0.0170866
9760.00,0.0254713
9765.00,0.0358364
9770.00,0.0303987
9775.00,0.0184856
9780.00,0.0308728
9785.00,0.0302650
9790.00,0.0251659
9795.00,0.0393816
9800.00,0.0278581
